participant_id,Name,Handedness,Age,Sex,Block,numresponse_OnsetTime,NumCondition,SoundCondition,probestimuli,teststimuli,sound,correctResp,Resp,ACC,RT
10,zyt         ,right,21,female,9,169122,3,5,1_42_2  ,1_41_1  ,multiloud,6,5,0,4824
10,zyt         ,right,21,female,10,177055,3,5,5_230_2 ,5_229_1 ,multiloud,6,6,1,1355
10,zyt         ,right,21,female,11,181555,6,1,6_258_2 ,6_257_1 ,         ,5,5,1,1727
10,zyt         ,right,21,female,12,186605,3,2,4_192_2 ,4_191_1 ,onesoft  ,6,5,0,2597
10,zyt         ,right,21,female,13,192338,2,1,7_318_2 ,7_317_1 ,         ,6,6,1,5648
10,zyt         ,right,21,female,14,201721,3,4,1_26_2  ,1_25_1  ,multisoft,6,5,0,753
10,zyt         ,right,21,female,15,205821,1,3,4_176_2 ,4_175_1 ,oneloud1 ,6,6,1,3892
10,zyt         ,right,21,female,16,213038,5,5,5_202_2 ,5_201_1 ,multiloud,5,5,1,811
10,zyt         ,right,21,female,17,217204,4,4,3_124_2 ,3_123_1 ,multisoft,5,6,0,3885
10,zyt         ,right,21,female,18,224671,4,2,4_178_2 ,4_177_1 ,onesoft  ,5,5,1,770
10,zyt         ,right,21,female,19,228771,6,1,8_380_2 ,8_379_1 ,         ,5,5,1,606
10,zyt         ,right,21,female,20,232604,5,4,2_80_2  ,2_79_1  ,multisoft,5,5,1,629
10,zyt         ,right,21,female,21,236604,4,2,2_90_2  ,2_89_1  ,onesoft1 ,5,5,1,477
10,zyt         ,right,21,female,22,240370,2,3,3_144_2 ,3_143_1 ,oneloud1 ,6,6,1,543
10,zyt         ,right,21,female,23,244470,2,5,1_18_2  ,1_17_1  ,multiloud,6,6,1,747
10,zyt         ,right,21,female,24,248437,3,3,3_106_2 ,3_105_1 ,oneloud1 ,6,6,1,1524
10,zyt         ,right,21,female,25,253020,1,2,4_176_2 ,4_175_1 ,onesoft  ,6,6,1,1485
10,zyt         ,right,21,female,26,257820,3,1,6_246_2 ,6_245_1 ,         ,6,6,1,1276
10,zyt         ,right,21,female,27,262570,3,5,1_6_2   ,1_5_1   ,multiloud,6,6,1,854
10,zyt         ,right,21,female,28,266987,1,2,5_204_2 ,5_203_1 ,onesoft  ,6,6,1,853
10,zyt         ,right,21,female,29,271103,3,3,4_168_2 ,4_167_1 ,oneloud1 ,6,6,1,1657
10,zyt         ,right,21,female,30,275770,4,1,10_444_2,10_443_1,         ,5,5,1,862
10,zyt         ,right,21,female,31,279736,6,3,1_48_2  ,1_47_1  ,oneloud  ,5,5,1,592
10,zyt         ,right,21,female,32,283553,4,4,2_54_2  ,2_53_1  ,multisoft,5,5,1,799
10,zyt         ,right,21,female,33,287836,1,5,5_194_2 ,5_193_1 ,multiloud,6,6,1,564
10,zyt         ,right,21,female,34,291886,1,5,4_188_2 ,4_187_1 ,multiloud,6,6,1,738
10,zyt         ,right,21,female,35,295736,1,1,6_270_2 ,6_269_1 ,         ,6,6,1,2392
10,zyt         ,right,21,female,36,301553,3,4,5_236_2 ,5_235_1 ,multisoft,6,6,1,1358
10,zyt         ,right,21,female,37,306086,6,2,3_136_2 ,3_135_1 ,onesoft  ,5,5,1,505
10,zyt         ,right,21,female,38,309936,1,3,4_184_2 ,4_183_1 ,oneloud1 ,6,6,1,983
10,zyt         ,right,21,female,39,314503,4,5,3_128_2 ,3_127_1 ,multiloud,5,6,0,872
10,zyt         ,right,21,female,40,318569,4,2,2_70_2  ,2_69_1  ,onesoft1 ,5,5,1,1206
10,zyt         ,right,21,female,41,322952,3,4,5_216_2 ,5_215_1 ,multisoft,6,6,1,647
10,zyt         ,right,21,female,42,326952,4,5,4_178_2 ,4_177_1 ,multiloud,5,5,1,583
10,zyt         ,right,21,female,43,331069,2,2,2_76_2  ,2_75_1  ,onesoft1 ,6,6,1,1362
10,zyt         ,right,21,female,44,335752,3,2,2_60_2  ,2_59_1  ,onesoft1 ,6,6,1,2663
10,zyt         ,right,21,female,45,341819,2,1,8_350_2 ,8_349_1 ,         ,6,6,1,580
10,zyt         ,right,21,female,46,345752,3,3,5_216_2 ,5_215_1 ,oneloud1 ,6,5,0,774
10,zyt         ,right,21,female,47,349835,1,5,1_24_2  ,1_23_1  ,multiloud,6,6,1,571
10,zyt         ,right,21,female,48,353535,2,5,5_196_2 ,5_195_1 ,multiloud,6,6,1,415
10,zyt         ,right,21,female,49,357202,4,3,4_174_2 ,4_173_1 ,oneloud1 ,5,5,1,532
10,zyt         ,right,21,female,50,360902,1,1,8_362_2 ,8_361_1 ,         ,6,6,1,400
10,zyt         ,right,21,female,51,364785,4,3,1_8_2   ,1_7_1   ,oneloud  ,5,5,1,541
10,zyt         ,right,21,female,52,368435,2,3,1_44_2  ,1_43_1  ,oneloud  ,6,6,1,547
10,zyt         ,right,21,female,53,372618,3,4,1_6_2   ,1_5_1   ,multisoft,6,6,1,1588
10,zyt         ,right,21,female,54,377452,6,1,8_372_2 ,8_371_1 ,         ,5,5,1,578
10,zyt         ,right,21,female,55,381068,5,3,5_234_2 ,5_233_1 ,oneloud1 ,5,5,1,578
10,zyt         ,right,21,female,56,385201,6,2,5_212_2 ,5_211_1 ,onesoft  ,5,5,1,445
10,zyt         ,right,21,female,57,388901,6,4,2_82_2  ,2_81_1  ,multisoft,5,5,1,945
10,zyt         ,right,21,female,58,393235,6,3,4_146_2 ,4_145_1 ,oneloud1 ,5,5,1,394
10,zyt         ,right,21,female,59,488083,5,3,1_10_2  ,1_9_1   ,oneloud1 ,5,5,1,552
10,zyt         ,right,21,female,60,491966,3,5,3_118_2 ,3_117_1 ,multiloud,6,6,1,669
10,zyt         ,right,21,female,61,496016,2,2,4_164_2 ,4_163_1 ,onesoft  ,6,6,1,867
10,zyt         ,right,21,female,62,500199,5,2,2_72_2  ,2_71_1  ,onesoft1 ,5,5,1,484
10,zyt         ,right,21,female,63,504266,6,2,1_48_2  ,1_47_1  ,onesoft1 ,5,5,1,617
10,zyt         ,right,21,female,64,508249,4,2,5_228_2 ,5_227_1 ,onesoft  ,5,5,1,418
10,zyt         ,right,21,female,65,512183,5,1,10_436_2,10_435_1,         ,5,6,0,708
10,zyt         ,right,21,female,66,515983,6,4,2_66_2  ,2_65_1  ,multisoft,5,5,1,412
10,zyt         ,right,21,female,67,519482,1,1,10_478_2,10_477_1,         ,6,6,1,569
10,zyt         ,right,21,female,68,523499,1,4,5_194_2 ,5_193_1 ,multisoft,6,6,1,488
10,zyt         ,right,21,female,69,527199,6,3,3_136_2 ,3_135_1 ,oneloud1 ,5,5,1,596
10,zyt         ,right,21,female,70,531282,2,3,5_224_2 ,5_223_1 ,oneloud1 ,6,6,1,905
10,zyt         ,right,21,female,71,535449,5,4,4_180_2 ,4_179_1 ,multisoft,5,6,0,3697
10,zyt         ,right,21,female,72,542365,2,2,3_130_2 ,3_129_1 ,onesoft1 ,6,6,1,613
10,zyt         ,right,21,female,73,546215,5,5,4_180_2 ,4_179_1 ,multiloud,5,5,1,443
10,zyt         ,right,21,female,74,549832,5,5,5_208_2 ,5_207_1 ,multiloud,5,5,1,914
10,zyt         ,right,21,female,75,554198,3,1,10_448_2,10_447_1,         ,6,6,1,532
10,zyt         ,right,21,female,76,557798,5,3,4_172_2 ,4_171_1 ,oneloud1 ,5,5,1,564
10,zyt         ,right,21,female,77,561598,3,5,1_22_2  ,1_21_1  ,multiloud,6,6,1,436
10,zyt         ,right,21,female,78,565348,2,1,8_358_2 ,8_357_1 ,         ,6,6,1,2958
10,zyt         ,right,21,female,79,571732,4,5,2_90_2  ,2_89_1  ,multiloud,5,5,1,1790
10,zyt         ,right,21,female,80,577015,2,4,4_150_2 ,4_149_1 ,multisoft,6,6,1,579
10,zyt         ,right,21,female,81,581198,5,5,3_132_2 ,3_131_1 ,multiloud,5,5,1,659
10,zyt         ,right,21,female,82,585398,3,5,2_50_2  ,2_49_1  ,multiloud,6,6,1,571
10,zyt         ,right,21,female,83,589148,6,4,1_4_2   ,1_3_1   ,multisoft,5,5,1,517
10,zyt         ,right,21,female,84,592931,6,3,2_82_2  ,2_81_1  ,oneloud  ,5,5,1,1910
10,zyt         ,right,21,female,85,598098,3,3,3_98_2  ,3_97_1  ,oneloud  ,6,6,1,487
10,zyt         ,right,21,female,86,601898,4,1,9_412_2 ,9_411_1 ,         ,5,5,1,623
10,zyt         ,right,21,female,87,605614,5,2,2_86_2  ,2_85_1  ,onesoft1 ,5,5,1,1323
10,zyt         ,right,21,female,88,610164,2,1,7_332_2 ,7_331_1 ,         ,6,6,1,493
10,zyt         ,right,21,female,89,613898,1,1,10_438_2,10_437_1,         ,6,6,1,615
10,zyt         ,right,21,female,90,617881,3,3,1_6_2   ,1_5_1   ,oneloud  ,6,5,0,528
10,zyt         ,right,21,female,91,621514,6,3,2_56_2  ,2_55_1  ,oneloud  ,5,5,1,543
10,zyt         ,right,21,female,92,625281,5,5,1_20_2  ,1_19_1  ,multiloud,5,5,1,519
10,zyt         ,right,21,female,93,629264,3,3,2_50_2  ,2_49_1  ,oneloud  ,6,5,0,1800
10,zyt         ,right,21,female,94,634697,2,5,4_164_2 ,4_163_1 ,multiloud,6,6,1,631
10,zyt         ,right,21,female,95,638580,5,2,5_208_2 ,5_207_1 ,onesoft  ,5,6,0,1404
10,zyt         ,right,21,female,96,643297,5,4,3_112_2 ,3_111_1 ,multisoft,5,5,1,759
10,zyt         ,right,21,female,97,647797,2,4,1_18_2  ,1_17_1  ,multisoft,6,6,1,803
10,zyt         ,right,21,female,98,652230,5,3,4_148_2 ,4_147_1 ,oneloud1 ,5,5,1,1266
10,zyt         ,right,21,female,99,656863,1,5,4_184_2 ,4_183_1 ,multiloud,6,6,1,921
10,zyt         ,right,21,female,100,661080,5,1,8_376_2 ,8_375_1 ,         ,5,5,1,552
10,zyt         ,right,21,female,101,665047,6,4,1_36_2  ,1_35_1  ,multisoft,5,5,1,657
10,zyt         ,right,21,female,102,668747,2,1,9_428_2 ,9_427_1 ,         ,6,6,1,501
10,zyt         ,right,21,female,103,672597,2,3,3_120_2 ,3_119_1 ,oneloud  ,6,6,1,570
10,zyt         ,right,21,female,104,676563,4,5,1_8_2   ,1_7_1   ,multiloud,5,5,1,564
10,zyt         ,right,21,female,105,680630,5,4,1_30_2  ,1_29_1  ,multisoft,5,5,1,713
10,zyt         ,right,21,female,106,684496,1,3,5_194_2 ,5_193_1 ,oneloud1 ,6,6,1,615
10,zyt         ,right,21,female,107,688296,1,4,1_12_2  ,1_11_1  ,multisoft,6,6,1,487
10,zyt         ,right,21,female,108,692213,6,2,4_160_2 ,4_159_1 ,onesoft  ,5,5,1,898
10,zyt         ,right,21,female,109,1006224,2,3,4_152_2 ,4_151_1 ,oneloud1 ,6,5,0,1088
10,zyt         ,right,21,female,110,1010707,3,2,1_22_2  ,1_21_1  ,onesoft1 ,6,6,1,565
10,zyt         ,right,21,female,111,1014707,6,2,2_88_2  ,2_87_1  ,onesoft1 ,5,5,1,421
10,zyt         ,right,21,female,112,1018757,1,5,4_186_2 ,4_185_1 ,multiloud,6,6,1,459
10,zyt         ,right,21,female,113,1022791,3,2,3_98_2  ,3_97_1  ,onesoft1 ,6,6,1,577
10,zyt         ,right,21,female,114,1026741,1,2,5_200_2 ,5_199_1 ,onesoft  ,6,6,1,571
10,zyt         ,right,21,female,115,1030474,6,3,5_222_2 ,5_221_1 ,oneloud1 ,5,5,1,510
10,zyt         ,right,21,female,116,1034257,4,5,3_124_2 ,3_123_1 ,multiloud,5,5,1,775
10,zyt         ,right,21,female,117,1038090,1,4,1_24_2  ,1_23_1  ,multisoft,6,6,1,574
10,zyt         ,right,21,female,118,1041874,4,3,5_228_2 ,5_227_1 ,oneloud1 ,5,5,1,661
10,zyt         ,right,21,female,119,1045707,4,1,8_382_2 ,8_381_1 ,         ,5,5,1,764
10,zyt         ,right,21,female,120,1049907,4,5,5_240_2 ,5_239_1 ,multiloud,5,5,1,660
10,zyt         ,right,21,female,121,1054040,4,2,1_34_2  ,1_33_1  ,onesoft1 ,5,5,1,591
10,zyt         ,right,21,female,122,1058123,2,5,5_224_2 ,5_223_1 ,multiloud,6,6,1,452
10,zyt         ,right,21,female,123,1061740,6,3,3_114_2 ,3_113_1 ,oneloud  ,5,5,1,403
10,zyt         ,right,21,female,124,1065257,1,3,5_198_2 ,5_197_1 ,oneloud1 ,6,6,1,430
10,zyt         ,right,21,female,125,1069056,2,5,5_210_2 ,5_209_1 ,multiloud,6,6,1,391
10,zyt         ,right,21,female,126,1072990,3,4,2_60_2  ,2_59_1  ,multisoft,6,6,1,553
10,zyt         ,right,21,female,127,1076623,1,2,1_12_2  ,1_11_1  ,onesoft1 ,6,6,1,592
10,zyt         ,right,21,female,128,1080506,3,5,5_232_2 ,5_231_1 ,multiloud,6,6,1,1125
10,zyt         ,right,21,female,129,1085123,2,4,5_210_2 ,5_209_1 ,multisoft,6,6,1,516
10,zyt         ,right,21,female,130,1088923,4,1,7_292_2 ,7_291_1 ,         ,5,5,1,867
10,zyt         ,right,21,female,131,1093006,5,2,5_234_2 ,5_233_1 ,onesoft  ,5,5,1,504
10,zyt         ,right,21,female,132,1097006,1,1,6_242_2 ,6_241_1 ,         ,6,6,1,464
10,zyt         ,right,21,female,133,1100839,4,5,1_46_2  ,1_45_1  ,multiloud,5,5,1,895
10,zyt         ,right,21,female,134,1105123,1,4,1_40_2  ,1_39_1  ,multisoft,6,6,1,507
10,zyt         ,right,21,female,135,1108689,1,1,10_476_2,10_475_1,         ,6,6,1,469
10,zyt         ,right,21,female,136,1112839,6,2,3_140_2 ,3_139_1 ,onesoft  ,5,5,1,431
10,zyt         ,right,21,female,137,1116822,2,5,4_152_2 ,4_151_1 ,multiloud,6,6,1,472
10,zyt         ,right,21,female,138,1120572,4,1,6_252_2 ,6_251_1 ,         ,5,5,1,378
10,zyt         ,right,21,female,139,1124122,4,4,2_58_2  ,2_57_1  ,multisoft,5,5,1,524
10,zyt         ,right,21,female,140,1127955,1,3,1_24_2  ,1_23_1  ,oneloud  ,6,6,1,459
10,zyt         ,right,21,female,141,1131639,3,3,3_104_2 ,3_103_1 ,oneloud  ,6,6,1,535
10,zyt         ,right,21,female,142,1135372,4,2,1_46_2  ,1_45_1  ,onesoft1 ,5,6,0,409
10,zyt         ,right,21,female,143,1139039,3,4,2_94_2  ,2_93_1  ,multisoft,6,6,1,446
10,zyt         ,right,21,female,144,1143039,2,4,3_120_2 ,3_119_1 ,multisoft,6,6,1,406
10,zyt         ,right,21,female,145,1146488,6,1,9_424_2 ,9_423_1 ,         ,5,5,1,397
10,zyt         ,right,21,female,146,1150055,6,5,1_4_2   ,1_3_1   ,multiloud,5,5,1,1094
10,zyt         ,right,21,female,147,1154655,6,4,4_146_2 ,4_145_1 ,multisoft,5,5,1,518
10,zyt         ,right,21,female,148,1158522,1,1,6_268_2 ,6_267_1 ,         ,6,6,1,459
10,zyt         ,right,21,female,149,1162305,2,4,3_144_2 ,3_143_1 ,multisoft,6,6,1,564
10,zyt         ,right,21,female,150,1166205,2,5,2_76_2  ,2_75_1  ,multiloud,6,6,1,760
10,zyt         ,right,21,female,151,1170255,6,2,2_82_2  ,2_81_1  ,onesoft1 ,5,5,1,382
10,zyt         ,right,21,female,152,1174138,2,2,1_18_2  ,1_17_1  ,onesoft1 ,6,5,0,507
10,zyt         ,right,21,female,153,1177755,6,1,7_320_2 ,7_319_1 ,         ,5,5,1,410
10,zyt         ,right,21,female,154,1181305,4,3,1_34_2  ,1_33_1  ,oneloud  ,5,5,1,843
10,zyt         ,right,21,female,155,1185221,6,4,4_170_2 ,4_169_1 ,multisoft,5,5,1,519
10,zyt         ,right,21,female,156,1189288,4,3,2_54_2  ,2_53_1  ,oneloud  ,5,6,0,868
10,zyt         ,right,21,female,157,1193321,4,1,6_260_2 ,6_259_1 ,         ,5,5,1,987
10,zyt         ,right,21,female,158,1197438,2,5,3_134_2 ,3_133_1 ,multiloud,6,6,1,662
10,zyt         ,right,21,female,159,1303186,2,3,5_196_2 ,5_195_1 ,oneloud1 ,6,6,1,648
10,zyt         ,right,21,female,160,1307469,2,3,4_164_2 ,4_163_1 ,oneloud1 ,6,6,1,589
10,zyt         ,right,21,female,161,1311686,1,4,3_142_2 ,3_141_1 ,multisoft,6,6,1,460
10,zyt         ,right,21,female,162,1315452,2,5,5_206_2 ,5_205_1 ,multiloud,6,6,1,654
10,zyt         ,right,21,female,163,1319335,2,3,3_130_2 ,3_129_1 ,oneloud  ,6,6,1,467
10,zyt         ,right,21,female,164,1323169,6,5,3_140_2 ,3_139_1 ,multiloud,5,5,1,352
10,zyt         ,right,21,female,165,1327019,1,2,3_138_2 ,3_137_1 ,onesoft  ,6,6,1,510
10,zyt         ,right,21,female,166,1331102,6,2,4_146_2 ,4_145_1 ,onesoft  ,5,5,1,539
10,zyt         ,right,21,female,167,1335019,6,2,2_56_2  ,2_55_1  ,onesoft1 ,5,5,1,430
10,zyt         ,right,21,female,168,1338635,3,2,5_230_2 ,5_229_1 ,onesoft  ,6,6,1,398
10,zyt         ,right,21,female,169,1342168,4,4,1_46_2  ,1_45_1  ,multisoft,5,5,1,457
10,zyt         ,right,21,female,170,1345785,4,1,8_342_2 ,8_341_1 ,         ,5,5,1,1256
10,zyt         ,right,21,female,171,1350585,4,5,2_58_2  ,2_57_1  ,multiloud,5,5,1,592
10,zyt         ,right,21,female,172,1354468,2,2,1_44_2  ,1_43_1  ,onesoft1 ,6,6,1,477
10,zyt         ,right,21,female,173,1358235,4,3,4_178_2 ,4_177_1 ,oneloud1 ,5,5,1,358
10,zyt         ,right,21,female,174,1361701,1,2,4_184_2 ,4_183_1 ,onesoft  ,6,6,1,420
10,zyt         ,right,21,female,175,1365585,1,3,2_64_2  ,2_63_1  ,oneloud  ,6,6,1,584
10,zyt         ,right,21,female,176,1369635,6,2,3_114_2 ,3_113_1 ,onesoft1 ,5,5,1,341
10,zyt         ,right,21,female,177,1373301,1,1,6_274_2 ,6_273_1 ,         ,6,6,1,507
10,zyt         ,right,21,female,178,1377201,3,4,3_118_2 ,3_117_1 ,multisoft,6,6,1,719
10,zyt         ,right,21,female,179,1381051,2,4,2_74_2  ,2_73_1  ,multisoft,6,6,1,541
10,zyt         ,right,21,female,180,1385118,4,3,4_162_2 ,4_161_1 ,oneloud1 ,5,5,1,850
10,zyt         ,right,21,female,181,1389151,5,1,7_304_2 ,7_303_1 ,         ,5,5,1,473
10,zyt         ,right,21,female,182,1392768,1,2,1_28_2  ,1_27_1  ,onesoft1 ,6,6,1,640
10,zyt         ,right,21,female,183,1396601,1,3,2_52_2  ,2_51_1  ,oneloud  ,6,6,1,791
10,zyt         ,right,21,female,184,1400801,5,5,4_172_2 ,4_171_1 ,multiloud,5,5,1,311
10,zyt         ,right,21,female,185,1404701,1,3,3_102_2 ,3_101_1 ,oneloud  ,6,6,1,387
10,zyt         ,right,21,female,186,1408901,3,5,4_192_2 ,4_191_1 ,multiloud,6,6,1,651
10,zyt         ,right,21,female,187,1413067,4,3,5_240_2 ,5_239_1 ,oneloud1 ,5,5,1,405
10,zyt         ,right,21,female,188,1416767,1,2,1_40_2  ,1_39_1  ,onesoft1 ,6,6,1,464
10,zyt         ,right,21,female,189,1420550,5,3,2_80_2  ,2_79_1  ,oneloud  ,5,5,1,449
10,zyt         ,right,21,female,190,1424334,6,1,10_454_2,10_453_1,         ,5,5,1,473
10,zyt         ,right,21,female,191,1428367,1,2,2_64_2  ,2_63_1  ,onesoft1 ,6,6,1,352
10,zyt         ,right,21,female,192,1431950,3,4,5_232_2 ,5_231_1 ,multisoft,6,6,1,537
10,zyt         ,right,21,female,193,1435634,3,4,4_182_2 ,4_181_1 ,multisoft,6,6,1,461
10,zyt         ,right,21,female,194,1439650,3,4,5_230_2 ,5_229_1 ,multisoft,6,6,1,709
10,zyt         ,right,21,female,195,1443517,2,3,1_18_2  ,1_17_1  ,oneloud  ,6,6,1,522
10,zyt         ,right,21,female,196,1447400,1,2,2_68_2  ,2_67_1  ,onesoft1 ,6,6,1,335
10,zyt         ,right,21,female,197,1450950,5,4,5_208_2 ,5_207_1 ,multisoft,5,5,1,569
10,zyt         ,right,21,female,198,1454917,4,5,2_54_2  ,2_53_1  ,multiloud,5,6,0,1090
10,zyt         ,right,21,female,199,1459233,5,4,4_148_2 ,4_147_1 ,multisoft,5,5,1,750
10,zyt         ,right,21,female,200,1463400,6,5,1_38_2  ,1_37_1  ,multiloud,5,5,1,390
10,zyt         ,right,21,female,201,1467066,4,4,4_178_2 ,4_177_1 ,multisoft,5,5,1,884
10,zyt         ,right,21,female,202,1471266,6,1,8_360_2 ,8_359_1 ,         ,5,5,1,444
10,zyt         ,right,21,female,203,1475233,1,3,3_110_2 ,3_109_1 ,oneloud  ,6,6,1,437
10,zyt         ,right,21,female,204,1479099,5,3,1_14_2  ,1_13_1  ,oneloud  ,5,6,0,275
10,zyt         ,right,21,female,205,1482433,2,4,4_152_2 ,4_151_1 ,multisoft,6,6,1,373
10,zyt         ,right,21,female,206,1486066,2,1,10_440_2,10_439_1,         ,6,5,0,420
10,zyt         ,right,21,female,207,1489866,4,4,2_70_2  ,2_69_1  ,multisoft,5,5,1,492
10,zyt         ,right,21,female,208,1493583,4,2,3_126_2 ,3_125_1 ,onesoft  ,5,5,1,471
10,zyt         ,right,21,female,209,1555915,6,3,2_88_2  ,2_87_1  ,oneloud  ,5,5,1,393
10,zyt         ,right,21,female,210,1559681,2,4,2_96_2  ,2_95_1  ,multisoft,6,6,1,451
10,zyt         ,right,21,female,211,1563548,6,5,3_114_2 ,3_113_1 ,multiloud,5,5,1,288
10,zyt         ,right,21,female,212,1567048,3,4,2_62_2  ,2_61_1  ,multisoft,6,6,1,460
10,zyt         ,right,21,female,213,1570831,5,1,9_392_2 ,9_391_1 ,         ,5,5,1,421
10,zyt         ,right,21,female,214,1574448,2,3,5_206_2 ,5_205_1 ,oneloud1 ,6,6,1,420
10,zyt         ,right,21,female,215,1578064,6,4,5_220_2 ,5_219_1 ,multisoft,5,5,1,300
10,zyt         ,right,21,female,216,1581698,6,2,5_220_2 ,5_219_1 ,onesoft  ,5,5,1,282
10,zyt         ,right,21,female,217,1585348,1,1,9_408_2 ,9_407_1 ,         ,6,6,1,480
10,zyt         ,right,21,female,218,1588898,6,4,3_108_2 ,3_107_1 ,multisoft,5,5,1,722
10,zyt         ,right,21,female,219,1592814,6,1,9_426_2 ,9_425_1 ,         ,5,5,1,302
10,zyt         ,right,21,female,220,1596247,3,1,10_452_2,10_451_1,         ,6,5,0,573
10,zyt         ,right,21,female,221,1599897,5,2,4_180_2 ,4_179_1 ,onesoft  ,5,5,1,402
10,zyt         ,right,21,female,222,1603814,3,2,3_118_2 ,3_117_1 ,onesoft  ,6,6,1,397
10,zyt         ,right,21,female,223,1607714,5,2,1_20_2  ,1_19_1  ,onesoft1 ,5,5,1,225
10,zyt         ,right,21,female,224,1611531,3,5,1_26_2  ,1_25_1  ,multiloud,6,5,0,952
10,zyt         ,right,21,female,225,1615697,3,1,8_340_2 ,8_339_1 ,         ,6,5,0,1530
10,zyt         ,right,21,female,226,1620580,6,3,5_220_2 ,5_219_1 ,oneloud1 ,5,5,1,407
10,zyt         ,right,21,female,227,1624464,4,4,4_162_2 ,4_161_1 ,multisoft,5,6,0,555
10,zyt         ,right,21,female,228,1628230,2,2,2_78_2  ,2_77_1  ,onesoft1 ,6,6,1,461
10,zyt         ,right,21,female,229,1632164,2,5,4_166_2 ,4_165_1 ,multiloud,6,6,1,423
10,zyt         ,right,21,female,230,1635797,2,4,4_164_2 ,4_163_1 ,multisoft,6,6,1,486
10,zyt         ,right,21,female,231,1639447,1,5,3_110_2 ,3_109_1 ,multiloud,6,6,1,404
10,zyt         ,right,21,female,232,1643130,4,2,4_162_2 ,4_161_1 ,onesoft  ,5,5,1,449
10,zyt         ,right,21,female,233,1646980,2,2,1_16_2  ,1_15_1  ,onesoft1 ,6,6,1,334
10,zyt         ,right,21,female,234,1650697,5,5,2_72_2  ,2_71_1  ,multiloud,5,5,1,337
10,zyt         ,right,21,female,235,1654213,5,5,4_148_2 ,4_147_1 ,multiloud,5,5,1,325
10,zyt         ,right,21,female,236,1657696,3,3,5_232_2 ,5_231_1 ,oneloud1 ,6,6,1,410
10,zyt         ,right,21,female,237,1661596,3,3,4_192_2 ,4_191_1 ,oneloud1 ,6,6,1,606
10,zyt         ,right,21,female,238,1665480,1,5,3_142_2 ,3_141_1 ,multiloud,6,6,1,354
10,zyt         ,right,21,female,239,1669046,3,2,1_26_2  ,1_25_1  ,onesoft1 ,6,5,0,396
10,zyt         ,right,21,female,240,1672646,5,1,8_370_2 ,8_369_1 ,         ,5,5,1,516
10,zyt         ,right,21,female,241,1676613,5,3,3_116_2 ,3_115_1 ,oneloud1 ,5,5,1,293
10,zyt         ,right,21,female,242,1680429,2,3,5_210_2 ,5_209_1 ,oneloud1 ,6,6,1,461
10,zyt         ,right,21,female,243,1684313,2,5,1_16_2  ,1_15_1  ,multiloud,6,5,0,1273
10,zyt         ,right,21,female,244,1688813,1,4,3_138_2 ,3_137_1 ,multisoft,6,6,1,365
10,zyt         ,right,21,female,245,1692413,5,1,9_398_2 ,9_397_1 ,         ,5,5,1,420
10,zyt         ,right,21,female,246,1695929,4,1,10_468_2,10_467_1,         ,5,5,1,888
10,zyt         ,right,21,female,247,1700296,6,3,4_154_2 ,4_153_1 ,oneloud1 ,5,5,1,417
10,zyt         ,right,21,female,248,1704296,4,5,1_34_2  ,1_33_1  ,multiloud,5,6,0,1313
10,zyt         ,right,21,female,249,1709146,1,3,3_142_2 ,3_141_1 ,oneloud1 ,6,6,1,359
10,zyt         ,right,21,female,250,1712912,5,3,3_132_2 ,3_131_1 ,oneloud1 ,5,5,1,265
10,zyt         ,right,21,female,251,1716412,2,2,4_150_2 ,4_149_1 ,onesoft  ,6,6,1,469
10,zyt         ,right,21,female,252,1720045,6,5,2_88_2  ,2_87_1  ,multiloud,5,5,1,356
10,zyt         ,right,21,female,253,1723662,1,5,3_102_2 ,3_101_1 ,multiloud,6,6,1,611
10,zyt         ,right,21,female,254,1727362,1,1,8_348_2 ,8_347_1 ,         ,6,5,0,1287
10,zyt         ,right,21,female,255,1732162,6,3,4_170_2 ,4_169_1 ,oneloud1 ,5,5,1,487
10,zyt         ,right,21,female,256,1735812,5,4,2_86_2  ,2_85_1  ,multisoft,5,5,1,365
10,zyt         ,right,21,female,257,1739728,1,4,1_28_2  ,1_27_1  ,multisoft,6,6,1,624
10,zyt         ,right,21,female,258,1743412,3,4,3_104_2 ,3_103_1 ,multisoft,6,5,0,924
10,zyt         ,right,21,female,259,1936675,4,2,3_122_2 ,3_121_1 ,onesoft1 ,5,6,0,681
10,zyt         ,right,21,female,260,1940542,6,1,8_378_2 ,8_377_1 ,         ,5,5,1,334
10,zyt         ,right,21,female,261,1944292,5,5,1_30_2  ,1_29_1  ,multiloud,5,5,1,264
10,zyt         ,right,21,female,262,1947725,5,4,5_218_2 ,5_217_1 ,multisoft,5,5,1,335
10,zyt         ,right,21,female,263,1951408,5,2,3_132_2 ,3_131_1 ,onesoft  ,5,5,1,308
10,zyt         ,right,21,female,264,1955108,2,4,3_130_2 ,3_129_1 ,multisoft,6,6,1,456
10,zyt         ,right,21,female,265,1958925,3,2,4_190_2 ,4_189_1 ,onesoft  ,6,6,1,511
10,zyt         ,right,21,female,266,1962541,2,1,8_374_2 ,8_373_1 ,         ,6,5,0,463
10,zyt         ,right,21,female,267,1966158,6,3,1_38_2  ,1_37_1  ,oneloud  ,5,5,1,350
10,zyt         ,right,21,female,268,1969774,2,3,4_150_2 ,4_149_1 ,oneloud1 ,6,6,1,285
10,zyt         ,right,21,female,269,1973374,2,1,7_312_2 ,7_311_1 ,         ,6,6,1,797
10,zyt         ,right,21,female,270,1977341,2,1,9_432_2 ,9_431_1 ,         ,6,6,1,374
10,zyt         ,right,21,female,271,1981141,6,5,4_160_2 ,4_159_1 ,multiloud,5,5,1,334
10,zyt         ,right,21,female,272,1984574,4,2,5_240_2 ,5_239_1 ,onesoft  ,5,5,1,301
10,zyt         ,right,21,female,273,1988057,4,1,10_434_2,10_433_1,         ,5,6,0,474
10,zyt         ,right,21,female,274,1991991,6,4,4_154_2 ,4_153_1 ,multisoft,5,5,1,476
10,zyt         ,right,21,female,275,1995891,3,5,2_60_2  ,2_59_1  ,multiloud,6,5,0,888
10,zyt         ,right,21,female,276,2000041,4,3,3_122_2 ,3_121_1 ,oneloud  ,5,5,1,458
10,zyt         ,right,21,female,277,2003691,6,3,5_212_2 ,5_211_1 ,oneloud1 ,5,5,1,312
10,zyt         ,right,21,female,278,2007257,5,1,10_480_2,10_479_1,         ,5,5,1,330
10,zyt         ,right,21,female,279,2010924,1,5,2_92_2  ,2_91_1  ,multiloud,6,6,1,303
10,zyt         ,right,21,female,280,2014290,5,3,5_218_2 ,5_217_1 ,oneloud1 ,5,5,1,265
10,zyt         ,right,21,female,281,2017607,4,5,3_126_2 ,3_125_1 ,multiloud,5,5,1,379
10,zyt         ,right,21,female,282,2021207,4,4,1_8_2   ,1_7_1   ,multisoft,5,5,1,267
10,zyt         ,right,21,female,283,2024940,4,2,1_2_2   ,1_1_1   ,onesoft1 ,5,5,1,254
10,zyt         ,right,21,female,284,2028507,2,5,2_96_2  ,2_95_1  ,multiloud,6,6,1,407
10,zyt         ,right,21,female,285,2032323,1,2,5_194_2 ,5_193_1 ,onesoft  ,6,6,1,487
10,zyt         ,right,21,female,286,2036290,6,3,3_140_2 ,3_139_1 ,oneloud1 ,5,5,1,344
10,zyt         ,right,21,female,287,2040057,1,5,2_64_2  ,2_63_1  ,multiloud,6,6,1,321
10,zyt         ,right,21,female,288,2043673,6,4,3_114_2 ,3_113_1 ,multisoft,5,5,1,249
10,zyt         ,right,21,female,289,2047273,5,2,1_10_2  ,1_9_1   ,onesoft1 ,5,5,1,289
10,zyt         ,right,21,female,290,2050673,4,1,7_294_2 ,7_293_1 ,         ,5,5,1,409
10,zyt         ,right,21,female,291,2054206,1,5,5_198_2 ,5_197_1 ,multiloud,6,6,1,316
10,zyt         ,right,21,female,292,2058023,2,1,6_248_2 ,6_247_1 ,         ,6,5,0,723
10,zyt         ,right,21,female,293,2061756,4,5,5_226_2 ,5_225_1 ,multiloud,5,5,1,381
10,zyt         ,right,21,female,294,2065273,6,4,5_222_2 ,5_221_1 ,multisoft,5,5,1,456
10,zyt         ,right,21,female,295,2069056,5,2,2_80_2  ,2_79_1  ,onesoft1 ,5,5,1,281
10,zyt         ,right,21,female,296,2072706,2,2,5_196_2 ,5_195_1 ,onesoft  ,6,6,1,287
10,zyt         ,right,21,female,297,2076473,1,5,5_204_2 ,5_203_1 ,multiloud,6,6,1,376
10,zyt         ,right,21,female,298,2079923,5,4,4_172_2 ,4_171_1 ,multisoft,5,5,1,270
10,zyt         ,right,21,female,299,2083372,2,1,9_430_2 ,9_429_1 ,         ,6,6,1,285
10,zyt         ,right,21,female,300,2087072,4,4,3_122_2 ,3_121_1 ,multisoft,5,5,1,673
10,zyt         ,right,21,female,301,2090989,2,4,1_44_2  ,1_43_1  ,multisoft,6,6,1,460
10,zyt         ,right,21,female,302,2095022,4,3,2_58_2  ,2_57_1  ,oneloud  ,5,6,0,731
10,zyt         ,right,21,female,303,2099039,1,3,5_200_2 ,5_199_1 ,oneloud1 ,6,6,1,346
10,zyt         ,right,21,female,304,2102622,1,1,8_366_2 ,8_365_1 ,         ,6,6,1,291
10,zyt         ,right,21,female,305,2105939,4,2,3_124_2 ,3_123_1 ,onesoft1 ,5,5,1,366
10,zyt         ,right,21,female,306,2109705,1,4,2_92_2  ,2_91_1  ,multisoft,6,6,1,343
10,zyt         ,right,21,female,307,2113222,3,2,2_62_2  ,2_61_1  ,onesoft1 ,6,5,0,1178
10,zyt         ,right,21,female,308,2117705,1,5,4_176_2 ,4_175_1 ,multiloud,6,6,1,375
10,zyt         ,right,21,female,309,2202637,2,1,6_286_2 ,6_285_1 ,         ,6,6,1,521
10,zyt         ,right,21,female,310,2206354,2,2,2_74_2  ,2_73_1  ,onesoft1 ,6,6,1,236
10,zyt         ,right,21,female,311,2209920,5,5,2_80_2  ,2_79_1  ,multiloud,5,5,1,222
10,zyt         ,right,21,female,312,2213470,6,5,5_238_2 ,5_237_1 ,multiloud,5,5,1,152
10,zyt         ,right,21,female,313,2217054,6,5,3_108_2 ,3_107_1 ,multiloud,5,5,1,224
10,zyt         ,right,21,female,314,2220370,6,5,1_36_2  ,1_35_1  ,multiloud,5,5,1,196
10,zyt         ,right,21,female,315,2224087,2,2,4_152_2 ,4_151_1 ,onesoft  ,6,6,1,303
10,zyt         ,right,21,female,316,2227603,1,3,1_40_2  ,1_39_1  ,oneloud  ,6,6,1,267
10,zyt         ,right,21,female,317,2231153,6,1,7_330_2 ,7_329_1 ,         ,5,5,1,205
10,zyt         ,right,21,female,318,2234520,1,1,8_344_2 ,8_343_1 ,         ,6,6,1,206
10,zyt         ,right,21,female,319,2237920,1,2,1_24_2  ,1_23_1  ,onesoft1 ,6,6,1,526
10,zyt         ,right,21,female,320,2241803,4,1,8_346_2 ,8_345_1 ,         ,5,5,1,259
10,zyt         ,right,21,female,321,2245036,6,5,5_220_2 ,5_219_1 ,multiloud,5,5,1,226
10,zyt         ,right,21,female,322,2248703,4,5,4_162_2 ,4_161_1 ,multiloud,5,5,1,446
10,zyt         ,right,21,female,323,2252570,3,2,3_104_2 ,3_103_1 ,onesoft1 ,6,5,0,739
10,zyt         ,right,21,female,324,2256570,6,1,10_466_2,10_465_1,         ,5,5,1,307
10,zyt         ,right,21,female,325,2259953,4,4,4_158_2 ,4_157_1 ,multisoft,5,6,0,340
10,zyt         ,right,21,female,326,2263586,4,4,2_90_2  ,2_89_1  ,multisoft,5,5,1,235
10,zyt         ,right,21,female,327,2267103,1,2,4_188_2 ,4_187_1 ,onesoft  ,6,6,1,374
10,zyt         ,right,21,female,328,2270986,3,1,9_390_2 ,9_389_1 ,         ,6,5,0,843
10,zyt         ,right,21,female,329,2275219,3,1,7_336_2 ,7_335_1 ,         ,6,5,0,370
10,zyt         ,right,21,female,330,2279086,4,4,5_226_2 ,5_225_1 ,multisoft,5,5,1,271
10,zyt         ,right,21,female,331,2282552,4,3,2_90_2  ,2_89_1  ,oneloud  ,5,5,1,197
10,zyt         ,right,21,female,332,2285819,3,1,9_388_2 ,9_387_1 ,         ,6,6,1,322
10,zyt         ,right,21,female,333,2289336,5,2,3_100_2 ,3_99_1  ,onesoft1 ,5,5,1,157
10,zyt         ,right,21,female,334,2292652,3,1,6_254_2 ,6_253_1 ,         ,6,6,1,321
10,zyt         ,right,21,female,335,2296269,1,2,3_110_2 ,3_109_1 ,onesoft1 ,6,6,1,295
10,zyt         ,right,21,female,336,2299869,3,5,4_182_2 ,4_181_1 ,multiloud,6,5,0,311
10,zyt         ,right,21,female,337,2303502,2,3,4_166_2 ,4_165_1 ,oneloud1 ,6,6,1,462
10,zyt         ,right,21,female,338,2307135,3,1,10_470_2,10_469_1,         ,6,5,0,373
10,zyt         ,right,21,female,339,2310652,5,4,3_132_2 ,3_131_1 ,multisoft,5,5,1,888
10,zyt         ,right,21,female,340,2315085,3,3,1_42_2  ,1_41_1  ,oneloud  ,6,6,1,631
10,zyt         ,right,21,female,341,2319202,3,2,4_168_2 ,4_167_1 ,onesoft  ,6,6,1,338
10,zyt         ,right,21,female,342,2322802,4,4,3_128_2 ,3_127_1 ,multisoft,5,5,1,242
10,zyt         ,right,21,female,343,2326518,4,2,4_158_2 ,4_157_1 ,onesoft  ,5,5,1,510
10,zyt         ,right,21,female,344,2330385,5,1,10_474_2,10_473_1,         ,5,5,1,363
10,zyt         ,right,21,female,345,2333935,1,5,5_200_2 ,5_199_1 ,multiloud,6,6,1,317
10,zyt         ,right,21,female,346,2337318,4,4,4_174_2 ,4_173_1 ,multisoft,5,5,1,262
10,zyt         ,right,21,female,347,2340901,1,2,3_102_2 ,3_101_1 ,onesoft1 ,6,6,1,270
10,zyt         ,right,21,female,348,2344718,1,5,1_28_2  ,1_27_1  ,multiloud,6,6,1,477
10,zyt         ,right,21,female,349,2348218,2,4,5_196_2 ,5_195_1 ,multisoft,6,6,1,393
10,zyt         ,right,21,female,350,2351768,3,5,3_104_2 ,3_103_1 ,multiloud,6,5,0,563
10,zyt         ,right,21,female,351,2355518,3,1,9_414_2 ,9_413_1 ,         ,6,5,0,541
10,zyt         ,right,21,female,352,2359134,5,3,4_180_2 ,4_179_1 ,oneloud1 ,5,5,1,493
10,zyt         ,right,21,female,353,2362901,3,4,3_98_2  ,3_97_1  ,multisoft,6,6,1,382
10,zyt         ,right,21,female,354,2366651,5,5,3_112_2 ,3_111_1 ,multiloud,5,6,0,872
10,zyt         ,right,21,female,355,2370684,4,1,10_456_2,10_455_1,         ,5,5,1,319
10,zyt         ,right,21,female,356,2374251,1,4,2_64_2  ,2_63_1  ,multisoft,6,6,1,472
10,zyt         ,right,21,female,357,2378084,3,1,6_264_2 ,6_263_1 ,         ,6,6,1,559
10,zyt         ,right,21,female,358,2382217,1,3,5_204_2 ,5_203_1 ,oneloud1 ,6,6,1,1082
10,zyt         ,right,21,female,359,2422600,3,2,1_42_2  ,1_41_1  ,onesoft1 ,6,6,1,602
10,zyt         ,right,21,female,360,2426517,5,4,4_156_2 ,4_155_1 ,multisoft,5,5,1,389
10,zyt         ,right,21,female,361,2430433,1,4,4_184_2 ,4_183_1 ,multisoft,6,6,1,321
10,zyt         ,right,21,female,362,2434116,3,5,4_168_2 ,4_167_1 ,multiloud,6,6,1,733
10,zyt         ,right,21,female,363,2438166,4,5,2_70_2  ,2_69_1  ,multiloud,5,5,1,883
10,zyt         ,right,21,female,364,2442316,6,2,4_170_2 ,4_169_1 ,onesoft  ,5,5,1,381
10,zyt         ,right,21,female,365,2445733,1,4,4_186_2 ,4_185_1 ,multisoft,6,6,1,452
10,zyt         ,right,21,female,366,2449300,6,1,10_442_2,10_441_1,         ,5,5,1,277
10,zyt         ,right,21,female,367,2453099,5,2,3_112_2 ,3_111_1 ,onesoft1 ,5,5,1,526
10,zyt         ,right,21,female,368,2456933,6,4,2_88_2  ,2_87_1  ,multisoft,5,5,1,220
10,zyt         ,right,21,female,369,2460216,4,2,1_8_2   ,1_7_1   ,onesoft1 ,5,5,1,281
10,zyt         ,right,21,female,370,2463566,2,4,5_206_2 ,5_205_1 ,multisoft,6,6,1,347
10,zyt         ,right,21,female,371,2466933,4,1,7_300_2 ,7_299_1 ,         ,5,5,1,468
10,zyt         ,right,21,female,372,2470899,5,1,6_272_2 ,6_271_1 ,         ,5,5,1,374
10,zyt         ,right,21,female,373,2474632,5,4,1_14_2  ,1_13_1  ,multisoft,5,5,1,337
10,zyt         ,right,21,female,374,2478266,2,2,2_96_2  ,2_95_1  ,onesoft1 ,6,6,1,447
10,zyt         ,right,21,female,375,2481949,3,2,5_216_2 ,5_215_1 ,onesoft  ,6,5,0,459
10,zyt         ,right,21,female,376,2485716,3,1,6_280_2 ,6_279_1 ,         ,6,6,1,572
10,zyt         ,right,21,female,377,2489766,3,3,3_118_2 ,3_117_1 ,oneloud1 ,6,6,1,1154
10,zyt         ,right,21,female,378,2494165,5,3,4_156_2 ,4_155_1 ,oneloud1 ,5,5,1,411
10,zyt         ,right,21,female,379,2497665,2,5,3_130_2 ,3_129_1 ,multiloud,6,6,1,1111
10,zyt         ,right,21,female,380,2502099,3,2,3_106_2 ,3_105_1 ,onesoft  ,6,6,1,485
10,zyt         ,right,21,female,381,2505699,5,3,5_202_2 ,5_201_1 ,oneloud1 ,5,5,1,277
10,zyt         ,right,21,female,382,2509515,4,3,5_214_2 ,5_213_1 ,oneloud1 ,5,6,0,421
10,zyt         ,right,21,female,383,2513048,6,4,4_160_2 ,4_159_1 ,multisoft,5,5,1,416
10,zyt         ,right,21,female,384,2516798,1,1,9_420_2 ,9_419_1 ,         ,6,6,1,346
10,zyt         ,right,21,female,385,2520615,1,5,1_12_2  ,1_11_1  ,multiloud,6,6,1,401
10,zyt         ,right,21,female,386,2524282,4,1,6_244_2 ,6_243_1 ,         ,5,5,1,494
10,zyt         ,right,21,female,387,2528081,3,1,7_324_2 ,7_323_1 ,         ,6,6,1,614
10,zyt         ,right,21,female,388,2531665,5,1,7_334_2 ,7_333_1 ,         ,5,5,1,510
10,zyt         ,right,21,female,389,2535415,3,2,5_232_2 ,5_231_1 ,onesoft  ,6,6,1,376
10,zyt         ,right,21,female,390,2538915,5,5,1_10_2  ,1_9_1   ,multiloud,5,5,1,508
10,zyt         ,right,21,female,391,2542948,4,2,2_58_2  ,2_57_1  ,onesoft1 ,5,6,0,459
10,zyt         ,right,21,female,392,2546748,5,2,5_202_2 ,5_201_1 ,onesoft  ,5,5,1,291
10,zyt         ,right,21,female,393,2550114,1,4,5_198_2 ,5_197_1 ,multisoft,6,6,1,365
10,zyt         ,right,21,female,394,2553764,4,3,4_158_2 ,4_157_1 ,oneloud1 ,5,5,1,1131
10,zyt         ,right,21,female,395,2558298,2,3,2_76_2  ,2_75_1  ,oneloud  ,6,6,1,749
10,zyt         ,right,21,female,396,2562464,4,3,3_126_2 ,3_125_1 ,oneloud1 ,5,5,1,287
10,zyt         ,right,21,female,397,2565931,3,2,4_182_2 ,4_181_1 ,onesoft  ,6,6,1,476
10,zyt         ,right,21,female,398,2569664,2,5,2_78_2  ,2_77_1  ,multiloud,6,6,1,503
10,zyt         ,right,21,female,399,2573431,2,1,8_384_2 ,8_383_1 ,         ,6,6,1,543
10,zyt         ,right,21,female,400,2577347,4,3,5_226_2 ,5_225_1 ,oneloud1 ,5,5,1,395
10,zyt         ,right,21,female,401,2581131,1,1,9_410_2 ,9_409_1 ,         ,6,6,1,371
10,zyt         ,right,21,female,402,2585014,2,2,5_210_2 ,5_209_1 ,onesoft  ,6,6,1,520
10,zyt         ,right,21,female,403,2588814,3,2,2_50_2  ,2_49_1  ,onesoft1 ,6,5,0,368
10,zyt         ,right,21,female,404,2592330,5,4,5_202_2 ,5_201_1 ,multisoft,5,5,1,340
10,zyt         ,right,21,female,405,2595747,3,3,4_190_2 ,4_189_1 ,oneloud1 ,6,5,0,507
10,zyt         ,right,21,female,406,2599647,2,4,1_16_2  ,1_15_1  ,multisoft,6,5,0,439
10,zyt         ,right,21,female,407,2603314,5,3,5_208_2 ,5_207_1 ,oneloud1 ,5,5,1,252
10,zyt         ,right,21,female,408,2606563,5,5,2_86_2  ,2_85_1  ,multiloud,5,5,1,291
10,zyt         ,right,21,female,409,2663029,5,2,5_218_2 ,5_217_1 ,onesoft  ,5,5,1,224
10,zyt         ,right,21,female,410,2666412,1,2,2_92_2  ,2_91_1  ,onesoft1 ,6,6,1,280
10,zyt         ,right,21,female,411,2669812,4,1,9_418_2 ,9_417_1 ,         ,5,5,1,168
10,zyt         ,right,21,female,412,2673379,2,3,3_134_2 ,3_133_1 ,oneloud1 ,6,6,1,433
10,zyt         ,right,21,female,413,2677146,6,1,7_306_2 ,7_305_1 ,         ,5,5,1,210
10,zyt         ,right,21,female,414,2680679,1,4,4_188_2 ,4_187_1 ,multisoft,6,6,1,373
10,zyt         ,right,21,female,415,2684096,3,3,4_182_2 ,4_181_1 ,oneloud1 ,6,6,1,508
10,zyt         ,right,21,female,416,2688079,4,5,5_214_2 ,5_213_1 ,multiloud,5,6,0,525
10,zyt         ,right,21,female,417,2691712,5,1,9_396_2 ,9_395_1 ,         ,5,5,1,308
10,zyt         ,right,21,female,418,2695079,5,1,7_310_2 ,7_309_1 ,         ,5,5,1,253
10,zyt         ,right,21,female,419,2698612,4,3,3_128_2 ,3_127_1 ,oneloud1 ,5,6,0,616
10,zyt         ,right,21,female,420,2702495,6,1,7_314_2 ,7_313_1 ,         ,5,5,1,213
10,zyt         ,right,21,female,421,2705928,2,5,1_44_2  ,1_43_1  ,multiloud,6,6,1,260
10,zyt         ,right,21,female,422,2709528,5,3,1_20_2  ,1_19_1  ,oneloud  ,5,5,1,140
10,zyt         ,right,21,female,423,2713178,6,3,2_66_2  ,2_65_1  ,oneloud  ,5,5,1,209
10,zyt         ,right,21,female,424,2716762,1,4,2_52_2  ,2_51_1  ,multisoft,6,6,1,305
10,zyt         ,right,21,female,425,2720362,4,4,3_126_2 ,3_125_1 ,multisoft,5,5,1,121
10,zyt         ,right,21,female,426,2723628,3,4,3_106_2 ,3_105_1 ,multisoft,6,6,1,231
10,zyt         ,right,21,female,427,2727278,4,2,2_54_2  ,2_53_1  ,onesoft1 ,5,5,1,237
10,zyt         ,right,21,female,428,2730578,3,1,10_472_2,10_471_1,         ,6,6,1,201
10,zyt         ,right,21,female,429,2733928,3,4,2_50_2  ,2_49_1  ,multisoft,6,6,1,587
10,zyt         ,right,21,female,430,2737978,5,2,4_172_2 ,4_171_1 ,onesoft  ,5,5,1,217
10,zyt         ,right,21,female,431,2741728,2,4,5_224_2 ,5_223_1 ,multisoft,6,6,1,491
10,zyt         ,right,21,female,432,2745328,3,5,5_216_2 ,5_215_1 ,multiloud,6,5,0,139
10,zyt         ,right,21,female,433,2748694,3,1,7_322_2 ,7_321_1 ,         ,6,6,1,205
10,zyt         ,right,21,female,434,2752111,6,1,6_282_2 ,6_281_1 ,         ,5,5,1,228
10,zyt         ,right,21,female,435,2755478,1,2,2_52_2  ,2_51_1  ,onesoft1 ,6,6,1,413
10,zyt         ,right,21,female,436,2759378,2,3,1_32_2  ,1_31_1  ,oneloud  ,6,5,0,248
10,zyt         ,right,21,female,437,2763011,6,4,5_238_2 ,5_237_1 ,multisoft,5,5,1,231
10,zyt         ,right,21,female,438,2766527,6,5,1_48_2  ,1_47_1  ,multiloud,5,5,1,243
10,zyt         ,right,21,female,439,2769894,5,4,5_234_2 ,5_233_1 ,multisoft,5,5,1,220
10,zyt         ,right,21,female,440,2773227,2,3,2_78_2  ,2_77_1  ,oneloud  ,6,6,1,239
10,zyt         ,right,21,female,441,2776944,4,1,7_326_2 ,7_325_1 ,         ,5,6,0,330
10,zyt         ,right,21,female,442,2780544,3,5,5_236_2 ,5_235_1 ,multiloud,6,6,1,346
10,zyt         ,right,21,female,443,2784060,3,5,3_98_2  ,3_97_1  ,multiloud,6,6,1,134
10,zyt         ,right,21,female,444,2787377,4,3,1_46_2  ,1_45_1  ,oneloud  ,5,6,0,521
10,zyt         ,right,21,female,445,2791410,2,2,5_224_2 ,5_223_1 ,onesoft  ,6,5,0,272
10,zyt         ,right,21,female,446,2795127,3,5,3_106_2 ,3_105_1 ,multiloud,6,6,1,211
10,zyt         ,right,21,female,447,2798560,6,2,5_222_2 ,5_221_1 ,onesoft  ,5,5,1,394
10,zyt         ,right,21,female,448,2802260,5,1,6_256_2 ,6_255_1 ,         ,5,5,1,366
10,zyt         ,right,21,female,449,2805843,3,3,5_236_2 ,5_235_1 ,oneloud1 ,6,5,0,438
10,zyt         ,right,21,female,450,2809277,6,2,3_108_2 ,3_107_1 ,onesoft1 ,5,5,1,268
10,zyt         ,right,21,female,451,2812577,5,5,1_14_2  ,1_13_1  ,multiloud,5,5,1,144
10,zyt         ,right,21,female,452,2816293,6,2,5_238_2 ,5_237_1 ,onesoft  ,5,5,1,148
10,zyt         ,right,21,female,453,2819860,2,1,7_328_2 ,7_327_1 ,         ,6,6,1,237
10,zyt         ,right,21,female,454,2823360,6,4,5_212_2 ,5_211_1 ,multisoft,5,5,1,137
10,zyt         ,right,21,female,455,2826876,2,4,2_78_2  ,2_77_1  ,multisoft,6,6,1,341
10,zyt         ,right,21,female,456,2830610,4,4,1_2_2   ,1_1_1   ,multisoft,5,5,1,239
10,zyt         ,right,21,female,457,2834076,1,5,2_52_2  ,2_51_1  ,multiloud,6,6,1,149
10,zyt         ,right,21,female,458,2837376,3,1,7_308_2 ,7_307_1 ,         ,6,6,1,609
10,zyt         ,right,21,female,459,2920341,6,5,4_146_2 ,4_145_1 ,multiloud,5,5,1,250
10,zyt         ,right,21,female,460,2923875,5,2,2_84_2  ,2_83_1  ,onesoft1 ,5,5,1,132
10,zyt         ,right,21,female,461,2927458,2,3,2_74_2  ,2_73_1  ,oneloud  ,6,6,1,245
10,zyt         ,right,21,female,462,2930958,3,1,8_368_2 ,8_367_1 ,         ,6,5,0,137
10,zyt         ,right,21,female,463,2934325,2,5,2_74_2  ,2_73_1  ,multiloud,6,6,1,274
10,zyt         ,right,21,female,464,2938024,3,4,1_42_2  ,1_41_1  ,multisoft,6,5,0,647
10,zyt         ,right,21,female,465,2941591,5,1,10_462_2,10_461_1,         ,5,5,1,344
10,zyt         ,right,21,female,466,2945041,2,1,10_458_2,10_457_1,         ,6,6,1,181
10,zyt         ,right,21,female,467,2948558,2,1,10_450_2,10_449_1,         ,6,5,0,472
10,zyt         ,right,21,female,468,2952391,5,5,3_100_2 ,3_99_1  ,multiloud,5,5,1,143
10,zyt         ,right,21,female,469,2955774,5,4,1_10_2  ,1_9_1   ,multisoft,5,5,1,392
10,zyt         ,right,21,female,470,2959574,6,1,10_460_2,10_459_1,         ,5,5,1,160
10,zyt         ,right,21,female,471,2962707,4,4,5_228_2 ,5_227_1 ,multisoft,5,6,0,315
10,zyt         ,right,21,female,472,2966424,2,4,1_32_2  ,1_31_1  ,multisoft,6,6,1,686
10,zyt         ,right,21,female,473,2970457,6,2,1_4_2   ,1_3_1   ,onesoft1 ,5,5,1,437
10,zyt         ,right,21,female,474,2974207,5,3,3_112_2 ,3_111_1 ,oneloud  ,5,5,1,407
10,zyt         ,right,21,female,475,2977807,6,4,1_38_2  ,1_37_1  ,multisoft,5,5,1,143
10,zyt         ,right,21,female,476,2981257,5,1,8_354_2 ,8_353_1 ,         ,5,5,1,125
10,zyt         ,right,21,female,477,2984757,6,4,2_56_2  ,2_55_1  ,multisoft,5,5,1,193
10,zyt         ,right,21,female,478,2988507,1,5,1_40_2  ,1_39_1  ,multiloud,6,6,1,235
10,zyt         ,right,21,female,479,2991857,4,1,9_422_2 ,9_421_1 ,         ,5,5,1,428
10,zyt         ,right,21,female,480,2995623,1,3,2_92_2  ,2_91_1  ,oneloud  ,6,6,1,166
10,zyt         ,right,21,female,481,2998923,4,2,5_214_2 ,5_213_1 ,onesoft  ,5,6,0,698
10,zyt         ,right,21,female,482,3002707,5,2,1_14_2  ,1_13_1  ,onesoft1 ,5,5,1,194
10,zyt         ,right,21,female,483,3006190,5,5,5_218_2 ,5_217_1 ,multiloud,5,5,1,111
10,zyt         ,right,21,female,484,3009673,2,4,4_166_2 ,4_165_1 ,multisoft,6,6,1,236
10,zyt         ,right,21,female,485,3013240,1,3,4_188_2 ,4_187_1 ,oneloud1 ,6,6,1,373
10,zyt         ,right,21,female,486,3016856,1,2,3_142_2 ,3_141_1 ,onesoft  ,6,6,1,349
10,zyt         ,right,21,female,487,3020573,6,3,3_108_2 ,3_107_1 ,oneloud  ,5,5,1,288
10,zyt         ,right,21,female,488,3024206,2,1,6_288_2 ,6_287_1 ,         ,6,6,1,303
10,zyt         ,right,21,female,489,3027890,4,3,1_2_2   ,1_1_1   ,oneloud  ,5,6,0,539
10,zyt         ,right,21,female,490,3031806,6,1,9_404_2 ,9_403_1 ,         ,5,5,1,191
10,zyt         ,right,21,female,491,3035306,6,5,4_170_2 ,4_169_1 ,multiloud,5,5,1,258
10,zyt         ,right,21,female,492,3038656,1,3,3_138_2 ,3_137_1 ,oneloud1 ,6,6,1,260
10,zyt         ,right,21,female,493,3042056,3,4,1_22_2  ,1_21_1  ,multisoft,6,6,1,540
10,zyt         ,right,21,female,494,3045839,1,3,4_186_2 ,4_185_1 ,oneloud1 ,6,6,1,717
10,zyt         ,right,21,female,495,3049673,3,5,2_62_2  ,2_61_1  ,multiloud,6,6,1,563
10,zyt         ,right,21,female,496,3053672,3,5,4_190_2 ,4_189_1 ,multiloud,6,5,0,284
10,zyt         ,right,21,female,497,3057272,6,4,1_48_2  ,1_47_1  ,multisoft,5,5,1,276
10,zyt         ,right,21,female,498,3060922,4,4,1_34_2  ,1_33_1  ,multisoft,5,5,1,498
10,zyt         ,right,21,female,499,3064539,6,2,1_38_2  ,1_37_1  ,onesoft1 ,5,5,1,145
10,zyt         ,right,21,female,500,3068056,2,2,3_134_2 ,3_133_1 ,onesoft  ,6,6,1,300
10,zyt         ,right,21,female,501,3071422,4,1,6_284_2 ,6_283_1 ,         ,5,6,0,654
10,zyt         ,right,21,female,502,3075389,3,2,2_94_2  ,2_93_1  ,onesoft1 ,6,6,1,455
10,zyt         ,right,21,female,503,3079022,2,3,1_16_2  ,1_15_1  ,oneloud  ,6,5,0,630
10,zyt         ,right,21,female,504,3083072,2,1,10_464_2,10_463_1,         ,6,6,1,347
10,zyt         ,right,21,female,505,3086855,6,4,3_140_2 ,3_139_1 ,multisoft,5,5,1,220
10,zyt         ,right,21,female,506,3090472,6,5,3_136_2 ,3_135_1 ,multiloud,5,5,1,275
10,zyt         ,right,21,female,507,3094105,2,5,3_144_2 ,3_143_1 ,multiloud,6,6,1,410
10,zyt         ,right,21,female,508,3097688,2,1,9_406_2 ,9_405_1 ,         ,6,6,1,283
10,zyt         ,right,21,female,509,3216786,4,2,5_226_2 ,5_225_1 ,onesoft  ,5,5,1,239
10,zyt         ,right,21,female,510,3220320,5,2,4_148_2 ,4_147_1 ,onesoft  ,5,5,1,424
10,zyt         ,right,21,female,511,3223920,5,2,4_156_2 ,4_155_1 ,onesoft  ,5,5,1,192
10,zyt         ,right,21,female,512,3227603,5,5,2_84_2  ,2_83_1  ,multiloud,5,5,1,85
10,zyt         ,right,21,female,513,3230869,1,5,2_68_2  ,2_67_1  ,multiloud,6,6,1,299
10,zyt         ,right,21,female,514,3234636,5,1,9_386_2 ,9_385_1 ,         ,5,5,1,100
10,zyt         ,right,21,female,515,3238203,1,1,7_296_2 ,7_295_1 ,         ,6,6,1,253
10,zyt         ,right,21,female,516,3241569,4,3,2_70_2  ,2_69_1  ,oneloud  ,5,5,1,151
10,zyt         ,right,21,female,517,3244986,1,1,7_290_2 ,7_289_1 ,         ,6,6,1,198
10,zyt         ,right,21,female,518,3248336,4,5,4_158_2 ,4_157_1 ,multiloud,5,5,1,192
10,zyt         ,right,21,female,519,3251819,3,2,1_6_2   ,1_5_1   ,onesoft1 ,6,5,0,149
10,zyt         ,right,21,female,520,3254886,5,1,7_302_2 ,7_301_1 ,         ,5,5,1,130
10,zyt         ,right,21,female,521,3258252,4,2,3_128_2 ,3_127_1 ,onesoft  ,5,5,1,116
10,zyt         ,right,21,female,522,3261802,4,4,5_240_2 ,5_239_1 ,multisoft,5,5,1,350
10,zyt         ,right,21,female,523,3265202,1,1,9_416_2 ,9_415_1 ,         ,6,6,1,302
10,zyt         ,right,21,female,524,3268885,6,5,2_56_2  ,2_55_1  ,multiloud,5,5,1,210
10,zyt         ,right,21,female,525,3272169,2,2,5_206_2 ,5_205_1 ,onesoft  ,6,6,1,230
10,zyt         ,right,21,female,526,3275835,6,3,1_36_2  ,1_35_1  ,oneloud  ,5,5,1,132
10,zyt         ,right,21,female,527,3279402,5,4,3_100_2 ,3_99_1  ,multisoft,5,5,1,221
10,zyt         ,right,21,female,528,3282602,6,1,9_402_2 ,9_401_1 ,         ,5,5,1,5
10,zyt         ,right,21,female,529,3285885,1,3,1_12_2  ,1_11_1  ,oneloud  ,6,6,1,178
10,zyt         ,right,21,female,530,3289418,4,4,5_214_2 ,5_213_1 ,multisoft,5,5,1,221
10,zyt         ,right,21,female,531,3293035,4,5,5_228_2 ,5_227_1 ,multiloud,5,5,1,148
10,zyt         ,right,21,female,532,3296552,3,3,2_60_2  ,2_59_1  ,oneloud  ,6,6,1,287
10,zyt         ,right,21,female,533,3300252,4,2,4_174_2 ,4_173_1 ,onesoft  ,5,6,0,419
10,zyt         ,right,21,female,534,3303918,6,5,2_82_2  ,2_81_1  ,multiloud,5,5,1,105
10,zyt         ,right,21,female,535,3307185,5,1,6_250_2 ,6_249_1 ,         ,5,5,1,206
10,zyt         ,right,21,female,536,3310518,2,1,6_262_2 ,6_261_1 ,         ,6,6,1,225
10,zyt         ,right,21,female,537,3313851,2,2,4_166_2 ,4_165_1 ,onesoft  ,6,6,1,243
10,zyt         ,right,21,female,538,3317368,5,3,2_84_2  ,2_83_1  ,oneloud  ,5,5,1,182
10,zyt         ,right,21,female,539,3321018,5,2,1_30_2  ,1_29_1  ,onesoft1 ,5,5,1,364
10,zyt         ,right,21,female,540,3324668,2,2,3_144_2 ,3_143_1 ,onesoft  ,6,6,1,242
10,zyt         ,right,21,female,541,3328251,5,5,4_156_2 ,4_155_1 ,multiloud,5,5,1,163
10,zyt         ,right,21,female,542,3331534,3,3,1_26_2  ,1_25_1  ,oneloud  ,6,6,1,336
10,zyt         ,right,21,female,543,3335384,1,3,1_28_2  ,1_27_1  ,oneloud  ,6,6,1,406
10,zyt         ,right,21,female,544,3339134,3,3,1_22_2  ,1_21_1  ,oneloud  ,6,6,1,336
10,zyt         ,right,21,female,545,3342834,1,2,4_186_2 ,4_185_1 ,onesoft  ,6,6,1,204
10,zyt         ,right,21,female,546,3346067,5,1,6_266_2 ,6_265_1 ,         ,5,5,1,235
10,zyt         ,right,21,female,547,3349584,4,1,9_400_2 ,9_399_1 ,         ,5,5,1,374
10,zyt         ,right,21,female,548,3353267,6,4,3_136_2 ,3_135_1 ,multisoft,5,5,1,171
10,zyt         ,right,21,female,549,3356451,1,1,7_316_2 ,7_315_1 ,         ,6,6,1,187
10,zyt         ,right,21,female,550,3359884,3,3,2_94_2  ,2_93_1  ,oneloud  ,6,5,0,145
10,zyt         ,right,21,female,551,3363467,1,2,5_198_2 ,5_197_1 ,onesoft  ,6,6,1,330
10,zyt         ,right,21,female,552,3367234,5,4,3_116_2 ,3_115_1 ,multisoft,5,5,1,283
10,zyt         ,right,21,female,553,3370717,1,4,5_200_2 ,5_199_1 ,multisoft,6,6,1,936
10,zyt         ,right,21,female,554,3374867,5,3,3_100_2 ,3_99_1  ,oneloud  ,5,5,1,242
10,zyt         ,right,21,female,555,3378534,2,3,2_96_2  ,2_95_1  ,oneloud  ,6,6,1,207
10,zyt         ,right,21,female,556,3381783,5,3,1_30_2  ,1_29_1  ,oneloud  ,5,5,1,750
10,zyt         ,right,21,female,557,3385833,2,5,3_120_2 ,3_119_1 ,multiloud,6,6,1,196
10,zyt         ,right,21,female,558,3389467,2,4,2_76_2  ,2_75_1  ,multisoft,6,6,1,506
10,zyt         ,right,21,female,559,3472515,3,2,5_236_2 ,5_235_1 ,onesoft  ,6,6,1,272
10,zyt         ,right,21,female,560,3476165,6,5,4_154_2 ,4_153_1 ,multiloud,5,5,1,174
10,zyt         ,right,21,female,561,3479348,4,1,8_364_2 ,8_363_1 ,         ,5,5,1,207
10,zyt         ,right,21,female,562,3482798,6,3,1_4_2   ,1_3_1   ,oneloud  ,5,5,1,133
10,zyt         ,right,21,female,563,3486465,4,5,1_2_2   ,1_1_1   ,multiloud,5,5,1,162
10,zyt         ,right,21,female,564,3489848,5,4,2_72_2  ,2_71_1  ,multisoft,5,5,1,267
10,zyt         ,right,21,female,565,3493432,5,5,3_116_2 ,3_115_1 ,multiloud,5,5,1,115
10,zyt         ,right,21,female,566,3496748,2,5,4_150_2 ,4_149_1 ,multiloud,6,6,1,215
10,zyt         ,right,21,female,567,3500415,3,4,4_192_2 ,4_191_1 ,multisoft,6,5,0,275
10,zyt         ,right,21,female,568,3504015,6,1,6_278_2 ,6_277_1 ,         ,5,5,1,195
10,zyt         ,right,21,female,569,3507465,2,2,1_32_2  ,1_31_1  ,onesoft1 ,6,6,1,465
10,zyt         ,right,21,female,570,3510915,1,4,5_204_2 ,5_203_1 ,multisoft,6,6,1,263
10,zyt         ,right,21,female,571,3514698,5,5,5_234_2 ,5_233_1 ,multiloud,5,5,1,112
10,zyt         ,right,21,female,572,3518198,6,1,6_276_2 ,6_275_1 ,         ,5,5,1,204
10,zyt         ,right,21,female,573,3521498,3,5,2_94_2  ,2_93_1  ,multiloud,6,6,1,296
10,zyt         ,right,21,female,574,3525231,5,4,2_84_2  ,2_83_1  ,multisoft,5,5,1,107
10,zyt         ,right,21,female,575,3528581,2,5,1_32_2  ,1_31_1  ,multiloud,6,6,1,565
10,zyt         ,right,21,female,576,3532398,6,3,5_238_2 ,5_237_1 ,oneloud1 ,5,5,1,164
10,zyt         ,right,21,female,577,3535964,1,3,2_68_2  ,2_67_1  ,oneloud  ,6,6,1,150
10,zyt         ,right,21,female,578,3539397,6,5,5_222_2 ,5_221_1 ,multiloud,5,5,1,157
10,zyt         ,right,21,female,579,3542814,1,1,7_298_2 ,7_297_1 ,         ,6,6,1,308
10,zyt         ,right,21,female,580,3546664,6,5,5_212_2 ,5_211_1 ,multiloud,5,5,1,153
10,zyt         ,right,21,female,581,3550031,3,1,8_338_2 ,8_337_1 ,         ,6,5,0,618
10,zyt         ,right,21,female,582,3553981,4,5,4_174_2 ,4_173_1 ,multiloud,5,5,1,148
10,zyt         ,right,21,female,583,3557147,1,5,3_138_2 ,3_137_1 ,multiloud,6,6,1,182
10,zyt         ,right,21,female,584,3560564,2,2,3_120_2 ,3_119_1 ,onesoft1 ,6,6,1,293
10,zyt         ,right,21,female,585,3564014,5,3,2_86_2  ,2_85_1  ,oneloud  ,5,5,1,363
10,zyt         ,right,21,female,586,3567580,2,4,3_134_2 ,3_133_1 ,multisoft,6,6,1,349
10,zyt         ,right,21,female,587,3571164,5,4,1_20_2  ,1_19_1  ,multisoft,5,5,1,181
10,zyt         ,right,21,female,588,3574547,3,4,4_190_2 ,4_189_1 ,multisoft,6,6,1,342
10,zyt         ,right,21,female,589,3577997,4,5,3_122_2 ,3_121_1 ,multiloud,5,5,1,484
10,zyt         ,right,21,female,590,3582030,4,3,3_124_2 ,3_123_1 ,oneloud  ,5,5,1,299
10,zyt         ,right,21,female,591,3585463,3,3,5_230_2 ,5_229_1 ,oneloud1 ,6,6,1,354
10,zyt         ,right,21,female,592,3589197,3,1,9_394_2 ,9_393_1 ,         ,6,5,0,252
10,zyt         ,right,21,female,593,3592730,3,4,4_168_2 ,4_167_1 ,multisoft,6,6,1,238
10,zyt         ,right,21,female,594,3596363,3,1,8_352_2 ,8_351_1 ,         ,6,6,1,437
10,zyt         ,right,21,female,595,3599880,1,4,3_110_2 ,3_109_1 ,multisoft,6,6,1,360
10,zyt         ,right,21,female,596,3603330,5,3,2_72_2  ,2_71_1  ,oneloud  ,5,5,1,238
10,zyt         ,right,21,female,597,3606930,6,2,4_154_2 ,4_153_1 ,onesoft  ,5,5,1,294
10,zyt         ,right,21,female,598,3610546,1,4,4_176_2 ,4_175_1 ,multisoft,6,6,1,270
10,zyt         ,right,21,female,599,3614163,1,4,3_102_2 ,3_101_1 ,multisoft,6,6,1,309
10,zyt         ,right,21,female,600,3617896,5,1,8_356_2 ,8_355_1 ,         ,5,5,1,256
10,zyt         ,right,21,female,601,3621529,3,3,2_62_2  ,2_61_1  ,oneloud  ,6,6,1,535
10,zyt         ,right,21,female,602,3625096,5,2,3_116_2 ,3_115_1 ,onesoft  ,5,5,1,256
10,zyt         ,right,21,female,603,3628696,1,1,10_446_2,10_445_1,         ,6,6,1,528
10,zyt         ,right,21,female,604,3632246,6,5,2_66_2  ,2_65_1  ,multiloud,5,5,1,218
10,zyt         ,right,21,female,605,3635979,6,2,1_36_2  ,1_35_1  ,onesoft1 ,5,5,1,101
10,zyt         ,right,21,female,606,3639446,6,3,4_160_2 ,4_159_1 ,oneloud1 ,5,5,1,161
10,zyt         ,right,21,female,607,3643129,1,4,2_68_2  ,2_67_1  ,multisoft,6,6,1,326
10,zyt         ,right,21,female,608,3646762,6,2,2_66_2  ,2_65_1  ,onesoft1 ,5,5,1,461
